"USUBJID","AESOC","AEDECOD","ASEV","AEOUT","TRTEMFL","ASTDT","TRT01A"
"APX-301-001","Nervous system disorders","Headache","MILD","RECOVERED","Y","2024-02-04","Placebo"
"APX-301-001","Gastrointestinal disorders","Nausea","MODERATE","RECOVERED","Y","2024-02-19","Placebo"
"APX-301-002","Nervous system disorders","Headache","MILD","RECOVERED","Y","2024-02-11","Placebo"
"APX-301-003","Gastrointestinal disorders","Nausea","MILD","RECOVERING","Y","2024-03-02","Placebo"
"APX-301-005","Nervous system disorders","Headache","MODERATE","RECOVERED","Y","2024-02-07","Drug 10 mg"
"APX-301-005","Nervous system disorders","Dizziness","MILD","RECOVERED","Y","2024-03-15","Drug 10 mg"
"APX-301-006","Gastrointestinal disorders","Nausea","MILD","RECOVERED","Y","2024-02-22","Drug 10 mg"
"APX-301-007","Nervous system disorders","Headache","SEVERE","NOT RECOVERED","Y","2024-01-30","Drug 10 mg"
"APX-301-008","Skin and subcutaneous tissue disorders","Rash","MODERATE","RECOVERED","N","2024-04-01","Drug 10 mg"
"APX-301-009","Nervous system disorders","Headache","MILD","RECOVERED","Y","2024-02-14","Drug 20 mg"
"APX-301-010","Gastrointestinal disorders","Nausea","MODERATE","RECOVERED","Y","2024-02-27","Drug 20 mg"
"APX-301-010","Skin and subcutaneous tissue disorders","Rash","MILD","RECOVERING","Y","2024-03-08","Drug 20 mg"
"APX-301-011","Nervous system disorders","Dizziness","MILD","RECOVERED","Y","2024-03-21","Drug 20 mg"
"APX-301-012","Nervous system disorders","Headache","MODERATE","RECOVERED","Y","2024-02-02","Drug 20 mg"
