"USUBJID","AVISITN","AVISIT","TRTDURD","TRT01A","TRT01AN"
"APX-301-005",12,"Week 12",84,"Drug 10 mg",1
"APX-301-005",24,"Week 24",168,"Drug 10 mg",1
"APX-301-006",12,"Week 12",82,"Drug 10 mg",1
"APX-301-006",24,"Week 24",165,"Drug 10 mg",1
"APX-301-007",12,"Week 12",84,"Drug 10 mg",1
"APX-301-007",24,"Week 24",170,"Drug 10 mg",1
"APX-301-008",12,"Week 12",80,"Drug 10 mg",1
"APX-301-008",24,"Week 24",160,"Drug 10 mg",1
"APX-301-009",12,"Week 12",84,"Drug 20 mg",2
"APX-301-009",24,"Week 24",172,"Drug 20 mg",2
"APX-301-010",12,"Week 12",84,"Drug 20 mg",2
"APX-301-010",24,"Week 24",168,"Drug 20 mg",2
"APX-301-011",12,"Week 12",79,"Drug 20 mg",2
"APX-301-011",24,"Week 24",158,"Drug 20 mg",2
"APX-301-012",12,"Week 12",84,"Drug 20 mg",2
"APX-301-012",24,"Week 24",166,"Drug 20 mg",2
