"USUBJID","TRT01A","TRT01AN","SAFFL","AGE","AGEU","SEX","EOSSTT"
"APX-301-001","Placebo",0,"Y",60,"YEARS","F","COMPLETED"
"APX-301-002","Placebo",0,"Y",64,"YEARS","F","COMPLETED"
"APX-301-003","Placebo",0,"Y",68,"YEARS","M","COMPLETED"
"APX-301-004","Placebo",0,"Y",72,"YEARS","M","COMPLETED"
"APX-301-005","Drug 10 mg",1,"Y",54,"YEARS","F","COMPLETED"
"APX-301-006","Drug 10 mg",1,"Y",56,"YEARS","M","COMPLETED"
"APX-301-007","Drug 10 mg",1,"Y",60,"YEARS","M","COMPLETED"
"APX-301-008","Drug 10 mg",1,"Y",62,"YEARS","M","DISCONTINUED"
"APX-301-009","Drug 20 mg",2,"Y",62,"YEARS","F","COMPLETED"
"APX-301-010","Drug 20 mg",2,"Y",68,"YEARS","F","COMPLETED"
"APX-301-011","Drug 20 mg",2,"Y",72,"YEARS","F","DISCONTINUED"
"APX-301-012","Drug 20 mg",2,"Y",78,"YEARS","M","DISCONTINUED"
